date	time	group	subject	build	blocknum	trialnum	blockcode	trialcode	pretrialpause	posttrialpause	windowcenter	trialduration	trialtimeout	blocktimeout	response	correct	latency	inwindow	stimulusnumber1	stimulusitem1	stimulusvpos1	stimulushpos1	stimulusonset1
122017	18:56:23	1	1	4.0.10.0	2	1	storyblk	storytrial	500	0	0	0	0	0	255	0	74	0	0	0	0	0	0
122017	18:56:23	1	1	4.0.10.0	2	2	storyblk	storytrial	500	0	0	0	0	0	255	0	49	0	0	0	0	0	0
122017	18:56:23	1	1	4.0.10.0	2	3	storyblk	storytrial	500	0	0	0	0	0	255	0	64	0	0	0	0	0	0
122017	18:56:23	1	1	4.0.10.0	2	4	storyblk	storytrial	500	0	0	0	0	0	255	0	18	0	0	0	0	0	0
122017	18:56:23	1	1	4.0.10.0	2	5	storyblk	storytrial	500	0	0	0	0	0	255	0	58	0	0	0	0	0	0
122017	18:56:23	1	1	4.0.10.0	2	6	storyblk	storytrial	500	0	0	0	0	0	255	0	49	0	0	0	0	0	0
122017	18:56:23	1	1	4.0.10.0	2	7	storyblk	storytrial	500	0	0	0	0	0	255	0	82	0	0	0	0	0	0
122017	18:56:23	1	1	4.0.10.0	2	8	storyblk	storytrial	500	0	0	0	0	0	255	0	66	0	0	0	0	0	0
122017	18:57:30	1	1	4.0.10.0	2	1	storyblk	storytrial	500	0	0	0	0	0	255	0	44	0	0	0	0	0	0
122017	18:57:30	1	1	4.0.10.0	2	2	storyblk	storytrial	500	0	0	0	0	0	255	0	42	0	0	0	0	0	0
122017	18:57:30	1	1	4.0.10.0	2	3	storyblk	storytrial	500	0	0	0	0	0	255	0	48	0	0	0	0	0	0
122017	18:57:30	1	1	4.0.10.0	2	4	storyblk	storytrial	500	0	0	0	0	0	255	0	45	0	0	0	0	0	0
122017	18:57:30	1	1	4.0.10.0	2	5	storyblk	storytrial	500	0	0	0	0	0	255	0	37	0	0	0	0	0	0
122017	18:57:30	1	1	4.0.10.0	2	6	storyblk	storytrial	500	0	0	0	0	0	255	0	57	0	0	0	0	0	0
122017	18:57:30	1	1	4.0.10.0	2	7	storyblk	storytrial	500	0	0	0	0	0	255	0	69	0	0	0	0	0	0
122017	18:57:30	1	1	4.0.10.0	2	8	storyblk	storytrial	500	0	0	0	0	0	255	0	45	0	0	0	0	0	0
122017	18:58:41	1	1	4.0.10.0	2	1	storyblk	storytrial	500	0	0	0	0	0	255	0	45	0	0	0	0	0	0
122017	18:58:41	1	1	4.0.10.0	2	2	storyblk	storytrial	500	0	0	0	0	0	255	0	51	0	0	0	0	0	0
122017	18:58:41	1	1	4.0.10.0	2	3	storyblk	storytrial	500	0	0	0	0	0	255	0	40	0	0	0	0	0	0
122017	18:58:41	1	1	4.0.10.0	2	4	storyblk	storytrial	500	0	0	0	0	0	255	0	84	0	0	0	0	0	0
122017	18:58:41	1	1	4.0.10.0	2	5	storyblk	storytrial	500	0	0	0	0	0	255	0	33	0	0	0	0	0	0
122017	18:58:41	1	1	4.0.10.0	2	6	storyblk	storytrial	500	0	0	0	0	0	255	0	54	0	0	0	0	0	0
122017	18:58:41	1	1	4.0.10.0	2	7	storyblk	storytrial	500	0	0	0	0	0	255	0	52	0	0	0	0	0	0
122017	18:58:41	1	1	4.0.10.0	2	8	storyblk	storytrial	500	0	0	0	0	0	255	0	91	0	0	0	0	0	0
