date	time	group	subject	build	blocknum	trialnum	blockcode	trialcode	pretrialpause	posttrialpause	windowcenter	trialduration	trialtimeout	blocktimeout	response	correct	latency	inwindow	stimulusnumber1	stimulusitem1	stimulusvpos1	stimulushpos1	stimulusonset1	stimulusnumber2	stimulusitem2	stimulusvpos2	stimulushpos2	stimulusonset2	stimulusnumber3	stimulusitem3	stimulusvpos3	stimulushpos3	stimulusonset3	stimulusnumber4	stimulusitem4	stimulusvpos4	stimulushpos4	stimulusonset4	stimulusnumber5	stimulusitem5	stimulusvpos5	stimulushpos5	stimulusonset5
122917	11:09:39	1	1	4.0.10.0	1	1	dotblk	dotshow	0	0	0	300	0	0	0	0	300	0	1	dot311	16.6700000000000017053pct	16.6700000000000017053pct	-7	1	dot322	50pct	50pct	-7	1	dot333	83.3299999999999982947pct	83.3299999999999982947pct	-7	0	0	0	0	0	0	0	0	0	0
122917	11:09:39	1	1	4.0.10.0	1	2	dotblk	dotrecall	0	0	0	0	0	0	done	0	33	0	1	dot311	16.6700000000000017053pct	16.6700000000000017053pct	-16	1	dot322	50pct	50pct	-16	1	dot333	83.3299999999999982947pct	83.3299999999999982947pct	-16	1	重置	99.5pct	35pct	-16	1	完成	99.5pct	65pct	-16
122917	11:09:39	1	1	4.0.10.0	1	3	dotblk	dotrecall	0	0	0	0	0	0	done	0	43	0	1	dot311	16.6700000000000017053pct	16.6700000000000017053pct	-15	1	dot322	50pct	50pct	-15	1	dot333	83.3299999999999982947pct	83.3299999999999982947pct	-15	1	重置	99.5pct	35pct	-15	1	完成	99.5pct	65pct	-15
122917	11:09:39	1	1	4.0.10.0	1	4	dotblk	dotshow	0	0	0	300	0	0	0	0	300	0	1	dot311	16.6700000000000017053pct	16.6700000000000017053pct	-16	1	dot322	50pct	50pct	-16	1	dot333	83.3299999999999982947pct	83.3299999999999982947pct	-16	0	0	0	0	0	0	0	0	0	0
122917	11:09:39	1	1	4.0.10.0	1	5	dotblk	dotrecall	0	0	0	0	0	0	done	0	29	0	1	dot311	16.6700000000000017053pct	16.6700000000000017053pct	-16	1	dot322	50pct	50pct	-16	1	dot333	83.3299999999999982947pct	83.3299999999999982947pct	-16	1	重置	99.5pct	35pct	-16	1	完成	99.5pct	65pct	-16
122917	11:09:39	1	1	4.0.10.0	1	6	dotblk	dotrecall	0	0	0	0	0	0	reset	0	43	0	1	dot311	16.6700000000000017053pct	16.6700000000000017053pct	-16	1	dot322	50pct	50pct	-16	1	dot333	83.3299999999999982947pct	83.3299999999999982947pct	-16	1	重置	99.5pct	35pct	-16	1	完成	99.5pct	65pct	-16
122917	11:09:39	1	1	4.0.10.0	1	7	dotblk	dotshow	0	0	0	300	0	0	0	0	300	0	1	dot311	16.6700000000000017053pct	16.6700000000000017053pct	-16	1	dot322	50pct	50pct	-16	1	dot333	83.3299999999999982947pct	83.3299999999999982947pct	-16	0	0	0	0	0	0	0	0	0	0
122917	11:09:39	1	1	4.0.10.0	1	8	dotblk	dotrecall	0	0	0	0	0	0	dot333	0	39	0	1	dot311	16.6700000000000017053pct	16.6700000000000017053pct	-16	1	dot322	50pct	50pct	-16	1	dot333	83.3299999999999982947pct	83.3299999999999982947pct	-16	1	重置	99.5pct	35pct	-16	1	完成	99.5pct	65pct	-16
122917	11:09:39	1	1	4.0.10.0	1	9	dotblk	dotrecall	0	0	0	0	0	0	dot311	0	39	0	1	dot311	16.6700000000000017053pct	16.6700000000000017053pct	-16	1	dot322	50pct	50pct	-16	1	dot333	83.3299999999999982947pct	83.3299999999999982947pct	-16	1	重置	99.5pct	35pct	-16	1	完成	99.5pct	65pct	-16
122917	11:09:44	1	1	4.0.10.0	1	1	dotblk	dotshow	0	0	0	300	0	0	0	0	300	0	1	dot311	16.6700000000000017053pct	16.6700000000000017053pct	-7	1	dot322	50pct	50pct	-7	1	dot333	83.3299999999999982947pct	83.3299999999999982947pct	-7	0	0	0	0	0	0	0	0	0	0
122917	11:09:44	1	1	4.0.10.0	1	2	dotblk	dotrecall	0	0	0	0	0	0	dot311	0	1990	0	1	dot311	16.6700000000000017053pct	16.6700000000000017053pct	-16	1	dot322	50pct	50pct	-16	1	dot333	83.3299999999999982947pct	83.3299999999999982947pct	-16	1	重置	99.5pct	35pct	-16	1	完成	99.5pct	65pct	-16
122917	11:09:44	1	1	4.0.10.0	1	3	dotblk	dotrecall	0	0	0	0	0	0	done	0	1446	0	1	dot311	16.6700000000000017053pct	16.6700000000000017053pct	-16	1	dot322	50pct	50pct	-16	1	dot333	83.3299999999999982947pct	83.3299999999999982947pct	-16	1	重置	99.5pct	35pct	-16	1	完成	99.5pct	65pct	-16
122917	11:09:44	1	1	4.0.10.0	1	4	dotblk	dotshow	0	0	0	300	0	0	0	0	300	0	1	dot311	16.6700000000000017053pct	16.6700000000000017053pct	-16	1	dot322	50pct	50pct	-16	1	dot333	83.3299999999999982947pct	83.3299999999999982947pct	-16	0	0	0	0	0	0	0	0	0	0
122917	11:09:44	1	1	4.0.10.0	1	5	dotblk	dotrecall	0	0	0	0	0	0	done	0	1016	0	1	dot311	16.6700000000000017053pct	16.6700000000000017053pct	-16	1	dot322	50pct	50pct	-16	1	dot333	83.3299999999999982947pct	83.3299999999999982947pct	-16	1	重置	99.5pct	35pct	-16	1	完成	99.5pct	65pct	-16
122917	11:09:44	1	1	4.0.10.0	1	6	dotblk	dotrecall	0	0	0	0	0	0	done	0	480	0	1	dot311	16.6700000000000017053pct	16.6700000000000017053pct	-16	1	dot322	50pct	50pct	-16	1	dot333	83.3299999999999982947pct	83.3299999999999982947pct	-16	1	重置	99.5pct	35pct	-16	1	完成	99.5pct	65pct	-16
122917	11:09:44	1	1	4.0.10.0	1	7	dotblk	dotshow	0	0	0	300	0	0	0	0	300	0	1	dot311	16.6700000000000017053pct	16.6700000000000017053pct	-16	1	dot322	50pct	50pct	-16	1	dot333	83.3299999999999982947pct	83.3299999999999982947pct	-16	0	0	0	0	0	0	0	0	0	0
122917	11:09:44	1	1	4.0.10.0	1	8	dotblk	dotrecall	0	0	0	0	0	0	done	0	41	0	1	dot311	16.6700000000000017053pct	16.6700000000000017053pct	-16	1	dot322	50pct	50pct	-16	1	dot333	83.3299999999999982947pct	83.3299999999999982947pct	-16	1	重置	99.5pct	35pct	-16	1	完成	99.5pct	65pct	-16
122917	11:09:44	1	1	4.0.10.0	1	9	dotblk	dotrecall	0	0	0	0	0	0	done	0	655	0	1	dot311	16.6700000000000017053pct	16.6700000000000017053pct	-15	1	dot322	50pct	50pct	-15	1	dot333	83.3299999999999982947pct	83.3299999999999982947pct	-15	1	重置	99.5pct	35pct	-15	1	完成	99.5pct	65pct	-15
122917	11:10:15	1	1	4.0.10.0	1	1	dotblk	dotshow	0	0	0	300	0	0	0	0	300	0	1	dot311	16.6700000000000017053pct	16.6700000000000017053pct	-7	1	dot322	50pct	50pct	-7	1	dot333	83.3299999999999982947pct	83.3299999999999982947pct	-7	0	0	0	0	0	0	0	0	0	0
122917	11:10:15	1	1	4.0.10.0	1	2	dotblk	dotrecall	0	0	0	0	0	0	dot322	0	2712	0	1	dot311	16.6700000000000017053pct	16.6700000000000017053pct	-16	1	dot322	50pct	50pct	-16	1	dot333	83.3299999999999982947pct	83.3299999999999982947pct	-16	1	重置	99.5pct	35pct	-16	1	完成	99.5pct	65pct	-16
122917	11:10:15	1	1	4.0.10.0	1	3	dotblk	dotrecall	0	0	0	0	0	0	dot322	0	919	0	1	dot311	16.6700000000000017053pct	16.6700000000000017053pct	-16	1	dot322	50pct	50pct	-16	1	dot333	83.3299999999999982947pct	83.3299999999999982947pct	-16	1	重置	99.5pct	35pct	-16	1	完成	99.5pct	65pct	-16
122917	11:10:15	1	1	4.0.10.0	1	4	dotblk	dotshow	0	0	0	300	0	0	0	0	300	0	1	dot311	16.6700000000000017053pct	16.6700000000000017053pct	-16	1	dot322	50pct	50pct	-16	1	dot333	83.3299999999999982947pct	83.3299999999999982947pct	-16	0	0	0	0	0	0	0	0	0	0
122917	11:10:15	1	1	4.0.10.0	1	5	dotblk	dotrecall	0	0	0	0	0	0	dot322	0	374	0	1	dot311	16.6700000000000017053pct	16.6700000000000017053pct	-16	1	dot322	50pct	50pct	-16	1	dot333	83.3299999999999982947pct	83.3299999999999982947pct	-16	1	重置	99.5pct	35pct	-16	1	完成	99.5pct	65pct	-16
122917	11:10:15	1	1	4.0.10.0	1	6	dotblk	dotrecall	0	0	0	0	0	0	dot322	0	474	0	1	dot311	16.6700000000000017053pct	16.6700000000000017053pct	-16	1	dot322	50pct	50pct	-16	1	dot333	83.3299999999999982947pct	83.3299999999999982947pct	-16	1	重置	99.5pct	35pct	-16	1	完成	99.5pct	65pct	-16
122917	11:10:15	1	1	4.0.10.0	1	7	dotblk	dotshow	0	0	0	300	0	0	0	0	300	0	1	dot311	16.6700000000000017053pct	16.6700000000000017053pct	-16	1	dot322	50pct	50pct	-16	1	dot333	83.3299999999999982947pct	83.3299999999999982947pct	-16	0	0	0	0	0	0	0	0	0	0
122917	11:10:15	1	1	4.0.10.0	1	8	dotblk	dotrecall	0	0	0	0	0	0	dot322	0	368	0	1	dot311	16.6700000000000017053pct	16.6700000000000017053pct	-16	1	dot322	50pct	50pct	-16	1	dot333	83.3299999999999982947pct	83.3299999999999982947pct	-16	1	重置	99.5pct	35pct	-16	1	完成	99.5pct	65pct	-16
122917	11:10:15	1	1	4.0.10.0	1	9	dotblk	dotrecall	0	0	0	0	0	0	dot322	0	2634	0	1	dot311	16.6700000000000017053pct	16.6700000000000017053pct	-16	1	dot322	50pct	50pct	-16	1	dot333	83.3299999999999982947pct	83.3299999999999982947pct	-16	1	重置	99.5pct	35pct	-16	1	完成	99.5pct	65pct	-16
122917	11:11:32	1	1	4.0.10.0	1	1	dotblk	dotshow	0	0	0	300	0	0	0	0	300	0	1	dot311	16.6700000000000017053pct	16.6700000000000017053pct	-7	1	dot322	50pct	50pct	-7	1	dot333	83.3299999999999982947pct	83.3299999999999982947pct	-7	0	0	0	0	0	0	0	0	0	0
122917	11:11:32	1	1	4.0.10.0	1	2	dotblk	dotrecall	0	0	0	0	0	0	dot322	0	3085	0	1	dot311	16.6700000000000017053pct	16.6700000000000017053pct	-16	1	dot322	50pct	50pct	-16	1	dot333	83.3299999999999982947pct	83.3299999999999982947pct	-16	1	重置	99.5pct	35pct	-16	1	完成	99.5pct	65pct	-16
122917	11:11:32	1	1	4.0.10.0	1	3	dotblk	dotrecall	0	0	0	0	0	0	dot322	0	520	0	1	dot311	16.6700000000000017053pct	16.6700000000000017053pct	-16	1	dot322	50pct	50pct	-16	1	dot333	83.3299999999999982947pct	83.3299999999999982947pct	-16	1	重置	99.5pct	35pct	-16	1	完成	99.5pct	65pct	-16
122917	11:11:32	1	1	4.0.10.0	1	4	dotblk	dotshow	0	0	0	300	0	0	0	0	300	0	1	dot311	16.6700000000000017053pct	16.6700000000000017053pct	-16	1	dot322	50pct	50pct	-16	1	dot333	83.3299999999999982947pct	83.3299999999999982947pct	-16	0	0	0	0	0	0	0	0	0	0
122917	11:11:32	1	1	4.0.10.0	1	5	dotblk	dotrecall	0	0	0	0	0	0	dot322	0	138	0	1	dot311	16.6700000000000017053pct	16.6700000000000017053pct	-16	1	dot322	50pct	50pct	-16	1	dot333	83.3299999999999982947pct	83.3299999999999982947pct	-16	1	重置	99.5pct	35pct	-16	1	完成	99.5pct	65pct	-16
122917	11:11:32	1	1	4.0.10.0	1	6	dotblk	dotrecall	0	0	0	0	0	0	dot322	0	404	0	1	dot311	16.6700000000000017053pct	16.6700000000000017053pct	-16	1	dot322	50pct	50pct	-16	1	dot333	83.3299999999999982947pct	83.3299999999999982947pct	-16	1	重置	99.5pct	35pct	-16	1	完成	99.5pct	65pct	-16
122917	11:11:32	1	1	4.0.10.0	1	7	dotblk	dotshow	0	0	0	300	0	0	0	0	300	0	1	dot311	16.6700000000000017053pct	16.6700000000000017053pct	-16	1	dot322	50pct	50pct	-16	1	dot333	83.3299999999999982947pct	83.3299999999999982947pct	-16	0	0	0	0	0	0	0	0	0	0
122917	11:11:32	1	1	4.0.10.0	1	8	dotblk	dotrecall	0	0	0	0	0	0	dot322	0	32	0	1	dot311	16.6700000000000017053pct	16.6700000000000017053pct	-16	1	dot322	50pct	50pct	-16	1	dot333	83.3299999999999982947pct	83.3299999999999982947pct	-16	1	重置	99.5pct	35pct	-16	1	完成	99.5pct	65pct	-16
122917	11:11:32	1	1	4.0.10.0	1	9	dotblk	dotrecall	0	0	0	0	0	0	dot322	0	382	0	1	dot311	16.6700000000000017053pct	16.6700000000000017053pct	-16	1	dot322	50pct	50pct	-16	1	dot333	83.3299999999999982947pct	83.3299999999999982947pct	-16	1	重置	99.5pct	35pct	-16	1	完成	99.5pct	65pct	-16
122917	11:11:55	1	1	4.0.10.0	1	1	dotblk	dotshow	0	0	0	300	0	0	0	0	300	0	1	dot311	16.6700000000000017053pct	16.6700000000000017053pct	-7	1	dot322	50pct	50pct	-7	1	dot333	83.3299999999999982947pct	83.3299999999999982947pct	-7	0	0	0	0	0	0	0	0	0	0
122917	11:11:55	1	1	4.0.10.0	1	2	dotblk	dotrecall	0	0	0	0	0	0	dot322	0	780	0	1	dot311	16.6700000000000017053pct	16.6700000000000017053pct	-15	1	dot322	50pct	50pct	-15	1	dot333	83.3299999999999982947pct	83.3299999999999982947pct	-15	1	重置	99.5pct	35pct	-15	1	完成	99.5pct	65pct	-15
122917	11:11:55	1	1	4.0.10.0	1	3	dotblk	dotrecall	0	0	0	0	0	0	dot322	0	478	0	1	dot311	16.6700000000000017053pct	16.6700000000000017053pct	-16	1	dot322	50pct	50pct	-16	1	dot333	83.3299999999999982947pct	83.3299999999999982947pct	-16	1	重置	99.5pct	35pct	-16	1	完成	99.5pct	65pct	-16
122917	11:11:55	1	1	4.0.10.0	1	4	dotblk	dotshow	0	0	0	300	0	0	0	0	300	0	1	dot311	16.6700000000000017053pct	16.6700000000000017053pct	-16	1	dot322	50pct	50pct	-16	1	dot333	83.3299999999999982947pct	83.3299999999999982947pct	-16	0	0	0	0	0	0	0	0	0	0
122917	11:11:55	1	1	4.0.10.0	1	5	dotblk	dotrecall	0	0	0	0	0	0	dot322	0	38	0	1	dot311	16.6700000000000017053pct	16.6700000000000017053pct	-16	1	dot322	50pct	50pct	-16	1	dot333	83.3299999999999982947pct	83.3299999999999982947pct	-16	1	重置	99.5pct	35pct	-16	1	完成	99.5pct	65pct	-16
122917	11:11:55	1	1	4.0.10.0	1	6	dotblk	dotrecall	0	0	0	0	0	0	dot322	0	446	0	1	dot311	16.6700000000000017053pct	16.6700000000000017053pct	-16	1	dot322	50pct	50pct	-16	1	dot333	83.3299999999999982947pct	83.3299999999999982947pct	-16	1	重置	99.5pct	35pct	-16	1	完成	99.5pct	65pct	-16
122917	11:11:55	1	1	4.0.10.0	1	7	dotblk	dotshow	0	0	0	300	0	0	0	0	300	0	1	dot311	16.6700000000000017053pct	16.6700000000000017053pct	-16	1	dot322	50pct	50pct	-16	1	dot333	83.3299999999999982947pct	83.3299999999999982947pct	-16	0	0	0	0	0	0	0	0	0	0
122917	11:11:55	1	1	4.0.10.0	1	8	dotblk	dotrecall	0	0	0	0	0	0	dot322	0	744	0	1	dot311	16.6700000000000017053pct	16.6700000000000017053pct	-16	1	dot322	50pct	50pct	-16	1	dot333	83.3299999999999982947pct	83.3299999999999982947pct	-16	1	重置	99.5pct	35pct	-16	1	完成	99.5pct	65pct	-16
122917	11:11:55	1	1	4.0.10.0	1	9	dotblk	dotrecall	0	0	0	0	0	0	dot322	0	1050	0	1	dot311	16.6700000000000017053pct	16.6700000000000017053pct	-16	1	dot322	50pct	50pct	-16	1	dot333	83.3299999999999982947pct	83.3299999999999982947pct	-16	1	重置	99.5pct	35pct	-16	1	完成	99.5pct	65pct	-16
122917	11:14:29	1	1	4.0.10.0	1	1	dotblk	dotshow	0	0	0	300	0	0	0	0	300	0	1	dot311	16.6700000000000017053pct	16.6700000000000017053pct	-8	1	dot322	50pct	50pct	-8	1	dot333	83.3299999999999982947pct	83.3299999999999982947pct	-8	0	0	0	0	0	0	0	0	0	0
122917	11:14:29	1	1	4.0.10.0	1	2	dotblk	dotrecall	0	0	0	0	0	0	dot322	0	758	0	1	dot311	16.6700000000000017053pct	16.6700000000000017053pct	-16	1	dot322	50pct	50pct	-16	1	dot333	83.3299999999999982947pct	83.3299999999999982947pct	-16	1	重置	99.5pct	35pct	-16	1	完成	99.5pct	65pct	-16
122917	11:14:29	1	1	4.0.10.0	1	3	dotblk	dotrecall	0	0	0	0	0	0	dot322	0	548	0	1	dot311	16.6700000000000017053pct	16.6700000000000017053pct	-16	1	dot322	50pct	50pct	-16	1	dot333	83.3299999999999982947pct	83.3299999999999982947pct	-16	1	重置	99.5pct	35pct	-16	1	完成	99.5pct	65pct	-16
122917	11:14:29	1	1	4.0.10.0	1	4	dotblk	dotshow	0	0	0	300	0	0	0	0	300	0	1	dot311	16.6700000000000017053pct	16.6700000000000017053pct	-16	1	dot322	50pct	50pct	-16	1	dot333	83.3299999999999982947pct	83.3299999999999982947pct	-16	0	0	0	0	0	0	0	0	0	0
122917	11:14:29	1	1	4.0.10.0	1	5	dotblk	dotrecall	0	0	0	0	0	0	dot322	0	82	0	1	dot311	16.6700000000000017053pct	16.6700000000000017053pct	-16	1	dot322	50pct	50pct	-16	1	dot333	83.3299999999999982947pct	83.3299999999999982947pct	-16	1	重置	99.5pct	35pct	-16	1	完成	99.5pct	65pct	-16
122917	11:14:29	1	1	4.0.10.0	1	6	dotblk	dotrecall	0	0	0	0	0	0	dot322	0	433	0	1	dot311	16.6700000000000017053pct	16.6700000000000017053pct	-16	1	dot322	50pct	50pct	-16	1	dot333	83.3299999999999982947pct	83.3299999999999982947pct	-16	1	重置	99.5pct	35pct	-16	1	完成	99.5pct	65pct	-16
122917	11:14:29	1	1	4.0.10.0	1	7	dotblk	dotshow	0	0	0	300	0	0	0	0	300	0	1	dot311	16.6700000000000017053pct	16.6700000000000017053pct	-16	1	dot322	50pct	50pct	-16	1	dot333	83.3299999999999982947pct	83.3299999999999982947pct	-16	0	0	0	0	0	0	0	0	0	0
122917	11:14:29	1	1	4.0.10.0	1	8	dotblk	dotrecall	0	0	0	0	0	0	dot322	0	435	0	1	dot311	16.6700000000000017053pct	16.6700000000000017053pct	-16	1	dot322	50pct	50pct	-16	1	dot333	83.3299999999999982947pct	83.3299999999999982947pct	-16	1	重置	99.5pct	35pct	-16	1	完成	99.5pct	65pct	-16
122917	11:14:29	1	1	4.0.10.0	1	9	dotblk	dotrecall	0	0	0	0	0	0	dot322	0	800	0	1	dot311	16.6700000000000017053pct	16.6700000000000017053pct	-16	1	dot322	50pct	50pct	-16	1	dot333	83.3299999999999982947pct	83.3299999999999982947pct	-16	1	重置	99.5pct	35pct	-16	1	完成	99.5pct	65pct	-16
122917	11:31:29	1	1	4.0.10.0	1	1	dotblk	dotshow	0	0	0	300	0	0	0	0	300	0	1	dot311	16.6700000000000017053pct	16.6700000000000017053pct	-7	1	dot322	50pct	50pct	-7	1	dot333	83.3299999999999982947pct	83.3299999999999982947pct	-7
122917	11:31:29	1	1	4.0.10.0	1	2	dotblk	dotrecall	0	0	0	0	0	0	dot322	0	1228	0	1	blank	50pct	50pct	-15	0	0	0	0	0	0	0	0	0	0
122917	11:31:29	1	1	4.0.10.0	1	3	dotblk	dotrecall	0	0	0	0	0	0	dot322	0	4921	0	1	blank	50pct	50pct	-16	0	0	0	0	0	0	0	0	0	0
122917	11:31:29	1	1	4.0.10.0	1	4	dotblk	dotshow	0	0	0	300	0	0	0	0	300	0	1	dot311	16.6700000000000017053pct	16.6700000000000017053pct	-7	1	dot322	50pct	50pct	-7	1	dot333	83.3299999999999982947pct	83.3299999999999982947pct	-7
122917	11:31:29	1	1	4.0.10.0	1	5	dotblk	dotrecall	0	0	0	0	0	0	dot322	0	1753	0	1	blank	50pct	50pct	-16	0	0	0	0	0	0	0	0	0	0
122917	11:31:29	1	1	4.0.10.0	1	6	dotblk	dotrecall	0	0	0	0	0	0	dot333	0	1738	0	1	blank	50pct	50pct	-16	0	0	0	0	0	0	0	0	0	0
122917	11:31:29	1	1	4.0.10.0	1	7	dotblk	dotshow	0	0	0	300	0	0	0	0	300	0	1	dot311	16.6700000000000017053pct	16.6700000000000017053pct	-16	1	dot322	50pct	50pct	-16	1	dot333	83.3299999999999982947pct	83.3299999999999982947pct	-16
122917	11:31:29	1	1	4.0.10.0	1	8	dotblk	dotrecall	0	0	0	0	0	0	dot333	0	1231	0	1	blank	50pct	50pct	-16	0	0	0	0	0	0	0	0	0	0
122917	11:31:29	1	1	4.0.10.0	1	9	dotblk	dotrecall	0	0	0	0	0	0	dot322	0	784	0	1	blank	50pct	50pct	-16	0	0	0	0	0	0	0	0	0	0
122917	11:33:38	1	1	4.0.10.0	1	1	dotblk	dotshow	0	0	0	300	0	0	0	0	300	0	1	dot311	16.6700000000000017053pct	16.6700000000000017053pct	-7	1	dot322	50pct	50pct	-7	1	dot333	83.3299999999999982947pct	83.3299999999999982947pct	-7
122917	11:33:38	1	1	4.0.10.0	1	2	dotblk	dotrecall	0	0	0	0	0	0	dot311	0	44	0	1	blank	50pct	50pct	-15	0	0	0	0	0	0	0	0	0	0
122917	11:33:38	1	1	4.0.10.0	1	3	dotblk	dotrecall	0	0	0	0	0	0	dot311	0	30	0	1	blank	50pct	50pct	-16	0	0	0	0	0	0	0	0	0	0
122917	11:33:38	1	1	4.0.10.0	1	4	dotblk	dotshow	0	0	0	300	0	0	0	0	300	0	1	dot311	16.6700000000000017053pct	16.6700000000000017053pct	-16	1	dot322	50pct	50pct	-16	1	dot333	83.3299999999999982947pct	83.3299999999999982947pct	-16
122917	11:33:38	1	1	4.0.10.0	1	5	dotblk	dotrecall	0	0	0	0	0	0	dot333	0	59	0	1	blank	50pct	50pct	-16	0	0	0	0	0	0	0	0	0	0
122917	11:33:38	1	1	4.0.10.0	1	6	dotblk	dotrecall	0	0	0	0	0	0	dot311	0	59	0	1	blank	50pct	50pct	-16	0	0	0	0	0	0	0	0	0	0
122917	11:33:38	1	1	4.0.10.0	1	7	dotblk	dotshow	0	0	0	300	0	0	0	0	300	0	1	dot311	16.6700000000000017053pct	16.6700000000000017053pct	-16	1	dot322	50pct	50pct	-16	1	dot333	83.3299999999999982947pct	83.3299999999999982947pct	-16
122917	11:33:38	1	1	4.0.10.0	1	8	dotblk	dotrecall	0	0	0	0	0	0	dot311	0	42	0	1	blank	50pct	50pct	-16	0	0	0	0	0	0	0	0	0	0
122917	11:33:38	1	1	4.0.10.0	1	9	dotblk	dotrecall	0	0	0	0	0	0	dot311	0	48	0	1	blank	50pct	50pct	-16	0	0	0	0	0	0	0	0	0	0
