date	time	subject	blocknum	blockcode	trialnum	trialcode	values.seqnumber	values.seqlength	values.seqstring	values.respstring	response	latency	values.correct	values.ncorrectinblock	values.ncorrecttotal	values.blockspan	values.totalscore
122917	10:44:21	1	2	corsiblock	4	recallseq	1	2	85	2	2	43	0	0	0	0	0
122917	10:44:21	1	2	corsiblock	5	recallseq	1	2	85	26	6	25	0	0	0	0	0
122917	10:44:21	1	2	corsiblock	6	recallseq	1	2	85	261	1	56	0	0	0	0	0
122917	10:44:21	1	2	corsiblock	7	recallseq	1	2	85	2619	9	61	0	0	0	0	0
122917	10:44:21	1	2	corsiblock	8	recallseq	1	2	85	26197	7	48	0	0	0	0	0
122917	10:44:21	1	2	corsiblock	9	recallseq	1	2	85	261973	3	55	0	0	0	0	0
122917	10:44:21	1	2	corsiblock	10	recallseq	1	2	85	2619739	9	58	0	0	0	0	0
122917	10:44:21	1	2	corsiblock	11	recallseq	1	2	85	26197391	1	60	0	0	0	0	0
122917	10:44:21	1	2	corsiblock	12	recallseq	1	2	85	261973917	7	57	0	0	0	0	0
122917	10:44:21	1	2	corsiblock	13	recallseq	1	2	85	2619739177	7	63	0	0	0	0	0
122917	10:44:21	1	2	corsiblock	14	recallseq	1	2	85	26197391777	7	56	0	0	0	0	0
122917	10:44:21	1	2	corsiblock	15	recallseq	1	2	85		reset	52	0	0	0	0	0
122917	10:44:21	1	2	corsiblock	16	recallseq	1	2	85	5	5	57	0	0	0	0	0
122917	10:44:21	1	2	corsiblock	17	recallseq	1	2	85	56	6	42	0	0	0	0	0
122917	10:44:21	1	2	corsiblock	18	recallseq	1	2	85	561	1	42	0	0	0	0	0
122917	10:44:21	1	2	corsiblock	19	recallseq	1	2	85		reset	29	0	0	0	0	0
122917	10:44:21	1	2	corsiblock	20	recallseq	1	2	85	9	9	54	0	0	0	0	0
122917	10:44:21	1	2	corsiblock	21	recallseq	1	2	85	9	done	66	0	0	0	0	0
122917	10:44:21	1	2	corsiblock	26	recallseq	2	2	64	8	8	44	0	0	0	0	0
122917	10:44:21	1	2	corsiblock	27	recallseq	2	2	64	82	2	54	0	0	0	0	0
122917	10:44:21	1	2	corsiblock	28	recallseq	2	2	64	824	4	61	0	0	0	0	0
122917	10:44:21	1	2	corsiblock	29	recallseq	2	2	64	8247	7	53	0	0	0	0	0
122917	10:44:21	1	2	corsiblock	30	recallseq	2	2	64	82479	9	35	0	0	0	0	0
122917	10:44:21	1	2	corsiblock	31	recallseq	2	2	64	824795	5	69	0	0	0	0	0
122917	10:44:21	1	2	corsiblock	32	recallseq	2	2	64	8247957	7	54	0	0	0	0	0
122917	10:44:21	1	2	corsiblock	33	recallseq	2	2	64	82479579	9	62	0	0	0	0	0
122917	10:44:21	1	2	corsiblock	34	recallseq	2	2	64	824795797	7	51	0	0	0	0	0
122917	10:44:21	1	2	corsiblock	35	recallseq	2	2	64	8247957973	3	53	0	0	0	0	0
122917	10:44:21	1	2	corsiblock	36	recallseq	2	2	64	82479579737	7	54	0	0	0	0	0
122917	10:44:21	1	2	corsiblock	37	recallseq	2	2	64	824795797374	4	42	0	0	0	0	0
122917	10:44:21	1	2	corsiblock	38	recallseq	2	2	64	8247957973749	9	74	0	0	0	0	0
122917	10:44:21	1	2	corsiblock	39	recallseq	2	2	64	82479579737499	9	42	0	0	0	0	0
122917	10:44:21	1	2	corsiblock	40	recallseq	2	2	64	824795797374999	9	41	0	0	0	0	0
122917	10:44:21	1	2	corsiblock	41	recallseq	2	2	64	8247957973749994	4	32	0	0	0	0	0
122917	10:44:21	1	2	corsiblock	42	recallseq	2	2	64	82479579737499946	6	51	0	0	0	0	0
122917	10:44:21	1	2	corsiblock	43	recallseq	2	2	64	824795797374999468	8	42	0	0	0	0	0
122917	10:44:21	1	2	corsiblock	44	recallseq	2	2	64	8247957973749994688	8	40	0	0	0	0	0
122917	10:44:21	1	2	corsiblock	45	recallseq	2	2	64	82479579737499946885	5	45	0	0	0	0	0
122917	10:44:21	1	2	corsiblock	46	recallseq	2	2	64	824795797374999468853	3	42	0	0	0	0	0
122917	10:44:21	1	2	corsiblock	47	recallseq	2	2	64	8247957973749994688537	7	61	0	0	0	0	0
122917	10:44:21	1	2	corsiblock	48	recallseq	2	2	64	82479579737499946885376	6	63	0	0	0	0	0
122917	10:44:21	1	2	corsiblock	49	recallseq	2	2	64	82479579737499946885376	done	47	0	0	0	0	0
